Folder: automated-mesoporous-silica/APS/data_viewing

Note: README.md
# Automated Mesoporous Synthesis

This repository is a companion to the paper, "Open-hardware automation platform for accelerated sol-gel nanomaterial synthesis". It contains the execution code used to run the automated synthesis experiments as well as a tutorial walk-through detailing how to reproduce the synthesis workflow.

## Repository structure:


ğŸ“ APS-experiments/
â”œâ”€â”€ ğŸ“ automated-execution/
â”‚   â”œâ”€â”€ ğŸ““ Jubilee_AFL_execution.ipynb          # Fully automated experiments using NIST-AFL sample loader
â”‚   â”œâ”€â”€ ğŸ“„ sample_composition_table.csv
â”‚   â””â”€â”€ ğŸ“„ usaxs_integration.md                 # Details of USAXS integration used
â”‚
â”œâ”€â”€ ğŸ“ batch-experiments/
â”‚   â”œâ”€â”€ ğŸ““ batch_execution.ipynb                # Notebook for executing batch-synthesized experiments
â”‚   â”œâ”€â”€ ğŸ““ constrained_sobol_sampling.ipynb     # Constrained Sobol rejection sampling
â”‚   â””â”€â”€ ğŸ“„ synthesized_sample_compositions.csv
â”‚
ğŸ“ tutorial-walkthrough/
â”œâ”€â”€ ğŸ“„ walkthrough.md                           # Step-by-step guide to reproducing the workflow
â””â”€â”€ ğŸ““ automated_synthesis.ipynb                # Clean example notebook using AFL sample changer



  ## Procedure tutorial

  For an explanatory walk-through of the steps needed to set up and execute the synthesis described in the paper, check out the [tutorial](Tutorial/tutorial.md)

  ## Instrument integration

  More information on the APS 12-ID-E USAXS and Xenocs SAXS instrument integrations is available [here](usaxs_integration/usaxs_integration.md).

  ## Additional hardware documentation

  The science-jubilee platform, including the Digital Pipette syringe tools, is fully documented [here](https://science-jubilee.readthedocs.io/en/latest/)

  The NIST-AFL sample changer implementation is documented [here](https://github.com/pozzo-research-group/AFL-sample-loader/tree/main).

File: WAXS-Control1-2.csv
# #q, WAXS_int
1.46697,1024.73
1.47901,1056.83
1.49106,1077.94
1.5031,1089.15
1.51515,1097.37
1.52719,1108.07
1.53924,1113.94
1.55128,1121.9
1.56333,1132.94
1.57537,1141.09
1.58742,1144.23
1.59946,1154.03
1.61151,1156.72
1.62355,1166.34
1.6356,1173.09
1.64764,1180.27
1.65969,1180.49
1.67173,1184.68
1.68378,1191.34
1.69582,1189.76
1.70787,1194.76
1.71991,1196.18
1.73196,1199.47
1.744,1203.22
1.75605,1198.69
1.76809,1201.68
1.78014,1196.92
1.79218,1199.32
1.80423,1192.98
1.81628,1190.42
1.82832,1186.39
1.84037,1183.21
1.85241,1172.89
1.86446,1172.61
1.8765,1163.52
1.88855,1153.37
1.90059,1144.32
1.91264,1133.82
1.92468,1123.38
1.93673,1111.23
1.94877,1104.35
1.96082,1085.74
1.97286,1075.32
1.98491,1065
1.99695,1055.02
2.009,1039.5
2.02104,1028.42
2.03309,1017.67
2.04513,1005.46
2.05718,993.092
2.06922,978.516
2.08127,967.918
2.09331,953.633
2.10536,945.597
2.1174,929.436
2.12945,923.256
2.14149,905.997
2.15354,899.346
2.16558,891.368
2.17763,878.839
2.18967,868.679
2.20172,859.713
2.21376,846.832
2.22581,837.359
2.23785,829.51
2.2499,821.476
2.26195,812.747
2.27399,807.571
2.28604,796.974
2.29808,789.907
2.31013,779.36
2.32217,774.984
2.33422,768.108
2.34626,762.589
2.35831,756.734
2.37035,748.308
2.3824,745.422
2.39444,738.405
2.40649,730.638
2.41853,693.532
2.43058,726.279
2.44262,718.787
2.45467,712.527
2.46671,706.32
2.47876,701.55
2.4908,698.464
2.50285,694.145
2.51489,689.789
2.52694,687.208
2.53898,683.303
2.55103,681.148
2.56307,677.75
2.57512,674.112
2.58716,670.076
2.59921,666.259
2.61125,664.477
2.6233,662.154
2.63534,663.235
2.64739,659.752
2.65943,656.178
2.67148,652.209
2.68352,653.122
2.69557,650.923
2.70762,647.388
2.71966,646.619
2.73171,644.165
2.74375,642.738
2.7558,639.496
2.76784,638.05
2.77989,634.671
2.79193,632.847
2.80398,635.565
2.81602,630.588
2.82807,625.94
2.84011,623.669
2.85216,623.895
2.8642,619.559
2.87625,616.603
2.88829,613.596
2.90034,610.233
2.91238,605.776
2.92443,598.75
2.93647,595.665
2.94852,596.467
2.96056,588.129
2.97261,583.767
2.98465,579.366
2.9967,573.609
3.00874,572.369
3.02079,564.632
3.03283,555.385
3.04488,552.708
3.05692,545.173
3.06897,538.515
3.08101,532.469
3.09306,526.507
3.1051,519.333
3.11715,511.797
3.12919,508.184
3.14124,499.986
3.15329,494.183
3.16533,486.553
3.17738,479.853
3.18942,473.076
3.20147,468.087
3.21351,461.087
3.22556,453.569
3.2376,447.779
3.24965,441.872
3.26169,436.265
3.27374,429.924
3.28578,424.431
3.29783,419.706
3.30987,413.385
3.32192,407.937
3.33396,400.07
3.34601,393.518
3.35805,394.318
3.3701,390.716
3.38214,384.904
3.39419,380.658
3.40623,379.022
3.41828,372.816
3.43032,370.203
3.44237,368.1
3.45441,364.205
3.46646,362.925
3.4785,356.533
3.49055,355.705
3.50259,352.755
3.51464,351.397
3.52668,348.233
3.53873,347.019
3.55077,342.13
3.56282,343.433
3.57486,339.016
3.58691,337.775
3.59896,335.584
3.611,335.32
3.62305,330.834
3.63509,329.724
3.64714,329.51
3.65918,327.557
3.67123,325.429
3.68327,325.517
3.69532,322.995
3.70736,321.512
3.71941,321.823
3.73145,320.075
3.7435,319.087
3.75554,318.331
3.76759,315.525
3.77963,314.778
3.79168,315.388
3.80372,313.857
3.81577,311.694
3.82781,312.378
3.83986,311.182
3.8519,312.087
3.86395,310.274
3.87599,309.527
3.88804,309.477
3.90008,307.942
3.91213,307.226
3.92417,306.234
3.93622,307.39
3.94826,303.967
3.96031,304.138
3.97235,305.25
3.9844,302.968
3.99644,302.307
4.00849,303.899
4.02053,303.08
4.03258,303.561
4.04463,301.764
4.05667,301.447
4.06872,301.038
4.08076,298.787
4.09281,298.321
4.10485,298.458
4.1169,298.115
4.12894,298.996
4.14099,297.078
4.15303,299.004
4.16508,296.509
4.17712,295.75
4.18917,294.81
4.20121,296.362
4.21326,303.532
4.2253,291.879
4.23735,291.336
4.24939,292.217
4.26144,290.3
4.27348,291.209
4.28553,291.403
4.29757,289.827
4.30962,290.657
4.32166,288.084
4.33371,289.167
4.34575,290.52
4.3578,287.002
4.36984,286.076
4.38189,287.853
4.39393,286.122
4.40598,286.666
4.41802,285.404
4.43007,285.6
4.44211,282.874
4.45416,282.241
4.4662,285.526
4.47825,282.667
4.4903,282.809
4.50234,284.358
4.51439,281.303
4.52643,281.298
4.53848,280.377
4.55052,279.778
4.56257,278.745
4.57461,278.764
4.58666,278.145
4.5987,277.874
4.61075,276.501
4.62279,276.796
4.63484,276.078
4.64688,273.953
4.65893,272.924
4.67097,272.766
4.68302,272.312
4.69506,270.692
4.70711,271.057
4.71915,270.286
4.7312,270.335
4.74324,268.969
4.75529,269.194
4.76733,266.033
4.77938,267.14
4.79142,265.553
4.80347,265.791
4.81551,264.42
4.82756,263.753
4.8396,263.473
4.85165,261.797
4.86369,263.058
4.87574,260.041
4.88778,260.353
4.89983,260.125
4.91187,260.08
4.92392,259.253
4.93597,257.298
4.94801,256.92
4.96006,256.778
4.9721,255.487
4.98415,254.23
4.99619,254.903
5.00824,249.879
5.02028,242.231
5.02372,236.368

File: WAXS-Control2-3.csv
# #q, WAXS_int
1.46697,1078.5
1.47901,1108.61
1.49106,1127.47
1.5031,1136.43
1.51515,1148.13
1.52719,1157.98
1.53924,1165.92
1.55128,1173.42
1.56333,1186.85
1.57537,1190.85
1.58742,1195.52
1.59946,1204.46
1.61151,1208.12
1.62355,1216.71
1.6356,1224.67
1.64764,1229.91
1.65969,1229.66
1.67173,1235.73
1.68378,1242.49
1.69582,1241.84
1.70787,1247.74
1.71991,1245.19
1.73196,1245.78
1.744,1248.81
1.75605,1247.03
1.76809,1246.01
1.78014,1245
1.79218,1247.34
1.80423,1239.17
1.81628,1235.9
1.82832,1232.64
1.84037,1223.78
1.85241,1218.05
1.86446,1211.57
1.8765,1202.3
1.88855,1193.18
1.90059,1182.19
1.91264,1174.7
1.92468,1160.72
1.93673,1147.75
1.94877,1141.37
1.96082,1123.28
1.97286,1111.18
1.98491,1097.92
1.99695,1088.76
2.009,1074.33
2.02104,1063.68
2.03309,1048.95
2.04513,1036.37
2.05718,1023.7
2.06922,1010.04
2.08127,1001.22
2.09331,984.517
2.10536,977.482
2.1174,957.693
2.12945,951.633
2.14149,938.133
2.15354,928.745
2.16558,918.751
2.17763,907.082
2.18967,896.606
2.20172,886.194
2.21376,876.221
2.22581,866.338
2.23785,856.07
2.2499,847.616
2.26195,838.76
2.27399,833.004
2.28604,820.451
2.29808,814.153
2.31013,807.064
2.32217,800.095
2.33422,791.074
2.34626,786.91
2.35831,777.528
2.37035,772.048
2.3824,767.401
2.39444,762.698
2.40649,752.364
2.41853,716.457
2.43058,751.607
2.44262,740.375
2.45467,736.465
2.46671,729.962
2.47876,724.916
2.4908,721.304
2.50285,715.802
2.51489,712.665
2.52694,709.745
2.53898,702.821
2.55103,702.14
2.56307,700.393
2.57512,694.872
2.58716,692.173
2.59921,688.819
2.61125,687.067
2.6233,684.32
2.63534,683.131
2.64739,681.022
2.65943,677.156
2.67148,673.139
2.68352,675.166
2.69557,670.952
2.70762,668.403
2.71966,668.511
2.73171,664.752
2.74375,661.563
2.7558,660.883
2.76784,657.441
2.77989,656.502
2.79193,652.126
2.80398,653.591
2.81602,650.665
2.82807,643.217
2.84011,645.915
2.85216,643.724
2.8642,638.184
2.87625,636.641
2.88829,632.367
2.90034,627.346
2.91238,624.974
2.92443,619.211
2.93647,613.964
2.94852,611.993
2.96056,607.321
2.97261,602.599
2.98465,594.861
2.9967,591.008
3.00874,586.559
3.02079,581.383
3.03283,575.298
3.04488,567.352
3.05692,560.732
3.06897,554.835
3.08101,548.635
3.09306,543.559
3.1051,536.215
3.11715,528.295
3.12919,523.829
3.14124,514.928
3.15329,508.781
3.16533,501.233
3.17738,494.075
3.18942,487.629
3.20147,482.831
3.21351,475.659
3.22556,468.387
3.2376,462.656
3.24965,455.986
3.26169,450.279
3.27374,443.719
3.28578,437.439
3.29783,433.817
3.30987,427.233
3.32192,422.099
3.33396,413.044
3.34601,404.889
3.35805,409.985
3.3701,405.358
3.38214,399.212
3.39419,394.915
3.40623,391.894
3.41828,387.408
3.43032,382.044
3.44237,381.542
3.45441,378.792
3.46646,374.3
3.4785,367.43
3.49055,367.07
3.50259,365.795
3.51464,362.461
3.52668,360.032
3.53873,358.245
3.55077,356.471
3.56282,355.954
3.57486,350.982
3.58691,349.774
3.59896,347.426
3.611,345.617
3.62305,343.114
3.63509,341.733
3.64714,341.588
3.65918,337.709
3.67123,337.872
3.68327,337.158
3.69532,334.155
3.70736,334.364
3.71941,333.073
3.73145,332.028
3.7435,330.97
3.75554,330.288
3.76759,327.362
3.77963,327.221
3.79168,327.177
3.80372,324.487
3.81577,323.441
3.82781,322.159
3.83986,320.936
3.8519,322.828
3.86395,321.454
3.87599,319.162
3.88804,319.298
3.90008,319.243
3.91213,318.841
3.92417,317.766
3.93622,317.072
3.94826,316.307
3.96031,314.771
3.97235,315.681
3.9844,315.084
3.99644,313.944
4.00849,314.161
4.02053,312.811
4.03258,312.723
4.04463,310.856
4.05667,311.724
4.06872,311.848
4.08076,311.254
4.09281,309.145
4.10485,309.801
4.1169,309.546
4.12894,308.158
4.14099,307.97
4.15303,306.452
4.16508,308.279
4.17712,305.644
4.18917,304.029
4.20121,305.836
4.21326,314.284
4.2253,302.469
4.23735,301.215
4.24939,301.459
4.26144,301.66
4.27348,300.583
4.28553,300.806
4.29757,298.663
4.30962,300.444
4.32166,300.98
4.33371,298.09
4.34575,302.41
4.3578,296.686
4.36984,296.314
4.38189,298.732
4.39393,296.009
4.40598,296.09
4.41802,296.997
4.43007,295.273
4.44211,294.403
4.45416,294.209
4.4662,293.727
4.47825,292.704
4.4903,291.753
4.50234,292.017
4.51439,291.337
4.52643,291.339
4.53848,290.663
4.55052,289.342
4.56257,288.982
4.57461,289.262
4.58666,288.836
4.5987,287.635
4.61075,286.003
4.62279,285.978
4.63484,286.769
4.64688,283.946
4.65893,282.263
4.67097,283.601
4.68302,282.304
4.69506,279.767
4.70711,279.991
4.71915,279.13
4.7312,277.919
4.74324,279.255
4.75529,277.402
4.76733,276.613
4.77938,277.011
4.79142,274.214
4.80347,274.938
4.81551,273.683
4.82756,273.191
4.8396,272.297
4.85165,272.178
4.86369,271.942
4.87574,270.007
4.88778,271.279
4.89983,270.289
4.91187,268.45
4.92392,269.645
4.93597,268.032
4.94801,266.165
4.96006,264.663
4.9721,264.942
4.98415,262.106
4.99619,263.151
5.00824,259.408
5.02028,249.235
5.02372,235.146

File: WAXS-Control_3-3.csv
# #q, WAXS_int
1.46697,1059.91
1.47901,1073.08
1.49106,1092.71
1.5031,1101.3
1.51515,1113.23
1.52719,1122.4
1.53924,1131.43
1.55128,1135.62
1.56333,1151.15
1.57537,1156.04
1.58742,1160.51
1.59946,1169.53
1.61151,1175.21
1.62355,1181.6
1.6356,1187.41
1.64764,1196.85
1.65969,1193.79
1.67173,1197.45
1.68378,1207.3
1.69582,1203.34
1.70787,1206.9
1.71991,1208.85
1.73196,1211.24
1.744,1211.21
1.75605,1213
1.76809,1214.48
1.78014,1207.3
1.79218,1211.4
1.80423,1202.09
1.81628,1199.5
1.82832,1195.12
1.84037,1189.91
1.85241,1179.13
1.86446,1178.18
1.8765,1171.84
1.88855,1158.53
1.90059,1147.66
1.91264,1139.06
1.92468,1128.57
1.93673,1116.31
1.94877,1107.81
1.96082,1090.98
1.97286,1080.27
1.98491,1068.66
1.99695,1056.68
2.009,1044.72
2.02104,1031.16
2.03309,1019.44
2.04513,1007.12
2.05718,995.494
2.06922,981.606
2.08127,970.228
2.09331,955.38
2.10536,948.51
2.1174,930.383
2.12945,924.887
2.14149,909.93
2.15354,902.474
2.16558,891.321
2.17763,878.512
2.18967,871.384
2.20172,860.339
2.21376,849.951
2.22581,839.334
2.23785,832.037
2.2499,821.977
2.26195,813.805
2.27399,808.587
2.28604,799.606
2.29808,791.469
2.31013,782.592
2.32217,776.338
2.33422,770.054
2.34626,761.221
2.35831,757.928
2.37035,748.377
2.3824,745.656
2.39444,738.86
2.40649,730.612
2.41853,696.183
2.43058,728.716
2.44262,720.501
2.45467,714.657
2.46671,707.058
2.47876,702.067
2.4908,701.346
2.50285,693.916
2.51489,692.206
2.52694,688.421
2.53898,683.637
2.55103,680.819
2.56307,679.095
2.57512,679.722
2.58716,670.527
2.59921,669.179
2.61125,666.003
2.6233,664.138
2.63534,662.303
2.64739,660.187
2.65943,657.461
2.67148,651.437
2.68352,654.778
2.69557,654.66
2.70762,650.211
2.71966,649.356
2.73171,645.726
2.74375,642.728
2.7558,641.221
2.76784,640.672
2.77989,636.909
2.79193,633.28
2.80398,636.818
2.81602,632.457
2.82807,627.441
2.84011,626.001
2.85216,624.704
2.8642,621.063
2.87625,617.424
2.88829,615.071
2.90034,608.907
2.91238,606.247
2.92443,601.457
2.93647,596.948
2.94852,595.202
2.96056,588.091
2.97261,583.594
2.98465,579.766
2.9967,574.537
3.00874,569.886
3.02079,564.602
3.03283,556.697
3.04488,552.057
3.05692,546.855
3.06897,540.715
3.08101,531.876
3.09306,526.722
3.1051,519.408
3.11715,512.903
3.12919,507.041
3.14124,498.592
3.15329,492.094
3.16533,484.96
3.17738,480.135
3.18942,473.807
3.20147,468.979
3.21351,460.864
3.22556,456.798
3.2376,449.207
3.24965,442.56
3.26169,438.63
3.27374,430.635
3.28578,425.962
3.29783,420.672
3.30987,415.442
3.32192,409.369
3.33396,399.572
3.34601,394.265
3.35805,396.43
3.3701,393.038
3.38214,387.207
3.39419,382.128
3.40623,381.66
3.41828,374.926
3.43032,371.641
3.44237,368.979
3.45441,367.59
3.46646,362.993
3.4785,356.303
3.49055,356.368
3.50259,354.39
3.51464,353.183
3.52668,349.991
3.53873,348.072
3.55077,345.129
3.56282,344.171
3.57486,342.428
3.58691,338.999
3.59896,336.126
3.611,335.373
3.62305,333.586
3.63509,332.793
3.64714,331.063
3.65918,329.235
3.67123,328.398
3.68327,327.09
3.69532,325.335
3.70736,323.52
3.71941,323.065
3.73145,321.335
3.7435,319.535
3.75554,320.059
3.76759,318.856
3.77963,317.974
3.79168,317.678
3.80372,316.293
3.81577,315.404
3.82781,315.077
3.83986,313.709
3.8519,311.231
3.86395,311.6
3.87599,311.368
3.88804,310.464
3.90008,309.748
3.91213,308.35
3.92417,308.61
3.93622,307.322
3.94826,308.213
3.96031,306.371
3.97235,307.347
3.9844,305.12
3.99644,304.62
4.00849,304.602
4.02053,303.77
4.03258,302.832
4.04463,302.664
4.05667,302.117
4.06872,303.696
4.08076,300.595
4.09281,300.784
4.10485,300.498
4.1169,299.529
4.12894,300.407
4.14099,300.168
4.15303,299.233
4.16508,297.874
4.17712,296.923
4.18917,296.236
4.20121,296.47
4.21326,305.263
4.2253,293.062
4.23735,293.122
4.24939,292.924
4.26144,291.264
4.27348,291.8
4.28553,291.612
4.29757,290.194
4.30962,290.585
4.32166,290.196
4.33371,289.193
4.34575,292.876
4.3578,289.967
4.36984,287.486
4.38189,287.414
4.39393,287.274
4.40598,286.99
4.41802,286.426
4.43007,285.261
4.44211,284.9
4.45416,284.586
4.4662,285.629
4.47825,285.172
4.4903,283.265
4.50234,284.316
4.51439,283.597
4.52643,283.044
4.53848,281.062
4.55052,280.216
4.56257,280.681
4.57461,279.221
4.58666,278.522
4.5987,278.686
4.61075,277.842
4.62279,277.862
4.63484,277.405
4.64688,275.671
4.65893,275.17
4.67097,274.481
4.68302,273.681
4.69506,272.155
4.70711,271.26
4.71915,271.275
4.7312,271.057
4.74324,270.861
4.75529,269.631
4.76733,267.99
4.77938,269.155
4.79142,266.75
4.80347,266.57
4.81551,265.612
4.82756,266.063
4.8396,265.997
4.85165,264.225
4.86369,263.092
4.87574,263.167
4.88778,261.609
4.89983,262.113
4.91187,260.606
4.92392,261.063
4.93597,258.879
4.94801,258.546
4.96006,259.072
4.9721,257.452
4.98415,255.364
4.99619,255.032
5.00824,248.891
5.02028,241.61
5.02372,230.569

File: WAXS-Precursor_background_noTEOS-1.csv
# #q, WAXS_int
1.46697,972.017
1.47901,1002.66
1.49106,1018.66
1.5031,1026.55
1.51515,1033.83
1.52719,1045.59
1.53924,1052.17
1.55128,1058.99
1.56333,1068.47
1.57537,1075.49
1.58742,1080.12
1.59946,1087.18
1.61151,1094.33
1.62355,1103.02
1.6356,1113.09
1.64764,1119.43
1.65969,1124.71
1.67173,1125.13
1.68378,1136.82
1.69582,1136.81
1.70787,1146.88
1.71991,1150.63
1.73196,1152.22
1.744,1158.4
1.75605,1159.92
1.76809,1162.41
1.78014,1165.23
1.79218,1172.09
1.80423,1166.73
1.81628,1168.69
1.82832,1165.92
1.84037,1165.33
1.85241,1158.79
1.86446,1159.28
1.8765,1153.7
1.88855,1149.46
1.90059,1140.83
1.91264,1137.72
1.92468,1126.4
1.93673,1117.39
1.94877,1110.53
1.96082,1097.93
1.97286,1084.41
1.98491,1075.27
1.99695,1066.78
2.009,1056.09
2.02104,1045.07
2.03309,1033.62
2.04513,1022.03
2.05718,1011.16
2.06922,994.109
2.08127,986.482
2.09331,974.929
2.10536,965.568
2.1174,948.457
2.12945,943.612
2.14149,928.881
2.15354,921.402
2.16558,909.818
2.17763,896.924
2.18967,888.009
2.20172,878.585
2.21376,867.011
2.22581,855.253
2.23785,848.647
2.2499,840.023
2.26195,830.174
2.27399,823.14
2.28604,814.564
2.29808,803.521
2.31013,797.111
2.32217,791.299
2.33422,784.752
2.34626,777.162
2.35831,767.329
2.37035,762.442
2.3824,757.741
2.39444,755.282
2.40649,743.428
2.41853,707.179
2.43058,743.475
2.44262,731.845
2.45467,725.462
2.46671,719.308
2.47876,715.191
2.4908,710.336
2.50285,708.523
2.51489,704.232
2.52694,700.293
2.53898,696.632
2.55103,692.213
2.56307,688.362
2.57512,684.703
2.58716,682.879
2.59921,676.914
2.61125,677.799
2.6233,674.043
2.63534,674.353
2.64739,668.986
2.65943,667.705
2.67148,666.08
2.68352,664.974
2.69557,662.575
2.70762,661.096
2.71966,657.166
2.73171,656.912
2.74375,656.212
2.7558,652.337
2.76784,651.046
2.77989,645.818
2.79193,645.61
2.80398,646.278
2.81602,643.399
2.82807,639.59
2.84011,638.426
2.85216,635.567
2.8642,633.247
2.87625,629.129
2.88829,629.199
2.90034,620.397
2.91238,619.879
2.92443,613.357
2.93647,608.887
2.94852,610.026
2.96056,600.851
2.97261,595.787
2.98465,592.988
2.9967,586.378
3.00874,581.332
3.02079,577.143
3.03283,568.413
3.04488,562.611
3.05692,556.189
3.06897,549.823
3.08101,543.078
3.09306,536.037
3.1051,529.146
3.11715,520.047
3.12919,514.43
3.14124,508.086
3.15329,499.521
3.16533,492.972
3.17738,488.326
3.18942,479.214
3.20147,472.219
3.21351,465.854
3.22556,461.079
3.2376,450.998
3.24965,445.764
3.26169,439.192
3.27374,433.69
3.28578,427.07
3.29783,422.176
3.30987,416.262
3.32192,410.968
3.33396,400.373
3.34601,393.312
3.35805,397.715
3.3701,393.588
3.38214,386.224
3.39419,381.403
3.40623,379.062
3.41828,373.768
3.43032,370.517
3.44237,367.896
3.45441,364.72
3.46646,361.222
3.4785,354.263
3.49055,354.057
3.50259,352.24
3.51464,349.439
3.52668,346.074
3.53873,345.049
3.55077,341.04
3.56282,341.351
3.57486,338.561
3.58691,334.951
3.59896,333.525
3.611,330.75
3.62305,330.155
3.63509,325.595
3.64714,327.553
3.65918,324.983
3.67123,323.029
3.68327,323.203
3.69532,320.253
3.70736,319.297
3.71941,318.298
3.73145,317.026
3.7435,316.882
3.75554,316.368
3.76759,313.71
3.77963,313.52
3.79168,313.369
3.80372,311.459
3.81577,310.335
3.82781,309.461
3.83986,308.605
3.8519,309.214
3.86395,307.117
3.87599,308.534
3.88804,306.506
3.90008,305.745
3.91213,306.767
3.92417,304.229
3.93622,302.883
3.94826,303.244
3.96031,303.135
3.97235,303.705
3.9844,302.956
3.99644,302.453
4.00849,301.982
4.02053,301.542
4.03258,301.151
4.04463,300.203
4.05667,299.527
4.06872,300.413
4.08076,298.552
4.09281,297.862
4.10485,297.817
4.1169,297.191
4.12894,296.5
4.14099,297.159
4.15303,296.333
4.16508,297.189
4.17712,295.162
4.18917,294.489
4.20121,296.293
4.21326,303.519
4.2253,292.53
4.23735,291.099
4.24939,291.431
4.26144,291.155
4.27348,291.411
4.28553,289.837
4.29757,289.596
4.30962,290.581
4.32166,288.844
4.33371,287.383
4.34575,292.061
4.3578,287.601
4.36984,287.191
4.38189,288.128
4.39393,286.204
4.40598,285.869
4.41802,286.001
4.43007,284.938
4.44211,285.143
4.45416,284.726
4.4662,283.546
4.47825,283.681
4.4903,283.582
4.50234,283.422
4.51439,283.83
4.52643,282.489
4.53848,280.103
4.55052,279.07
4.56257,279.243
4.57461,278.583
4.58666,279.676
4.5987,277.55
4.61075,276.536
4.62279,277.288
4.63484,275.992
4.64688,275.256
4.65893,274.767
4.67097,274.557
4.68302,273.049
4.69506,272.311
4.70711,271.584
4.71915,270.361
4.7312,270.548
4.74324,269.877
4.75529,268.993
4.76733,267.225
4.77938,268.153
4.79142,266.505
4.80347,266.314
4.81551,265.404
4.82756,263.522
4.8396,263.589
4.85165,262.306
4.86369,262.428
4.87574,260.397
4.88778,262.115
4.89983,260.931
4.91187,259.426
4.92392,259.517
4.93597,256.775
4.94801,256.878
4.96006,257.854
4.9721,255.802
4.98415,255.602
4.99619,252.697
5.00824,249.648
5.02028,242.146
5.02372,230.36